[
    {
        "animation_sequence": "[{\"stimulus\":{\"id\":\"red-dot\",\"x\":1253,\"y\":630,\"width\":112,\"height\":112},\"time\":1002},{\"stimulus\":{\"id\":\"green-dot\",\"x\":1253,\"y\":630,\"width\":112,\"height\":112},\"time\":2004}]",
        "responses": "[]",
        "trial_type": "animation",
        "trial_index": 0,
        "time_elapsed": 3006,
        "internal_node_id": "0.0-0.0"
    },
    {
        "rt": -1,
        "key_press": 39,
        "correct": false,
        "id": "disk-condition-1-1",
        "choices": [
            "leftarrow",
            "rightarrow",
            "esc",
            "s"
        ],
        "correct_choice": [
            "R"
        ],
        "trial_duration": 8000,
        "response_ends_trial": true,
        "central_intensity": 0.75,
        "surround_intensity": 0.45,
        "central_radius": 18.5,
        "surround_radius": 37,
        "ratio": 2,
        "speed": 1124,
        "direction": 1,
        "field_spacing": 236,
        "background_color": "gray",
        "frame_rate": 10.192356687898089,
        "frame_rate_array": "[7,29,1,37,1,1,10,10,10,10,10,10,10,11,9,10,10,10,10,10,10,10,10,10,10,10,10,11,9,10,10,10,10,11,9,10,10,11,9,10,10,10,125,6,9,10,10,10,10,11,9,11,10,10,9,11,9,11,10,9,10,10,11,9,10,10,10,10,11,9,11,9,11,10,10,9,11,10,10,10,10,10,9,11,9,10,11,10,10,9,11,9,11,10,10,9,11,10,9,11,9,11,10,10,10,11,9,10,10,10,10,10,10,10,10,10,10,10,10,10,10,10,10,10,10,10,10,10,10,10,10,10,10,10,10,10,10,10,10,10,10,10,11,9,10,10,10,10,10,10,10,10,10,10,11,9,10,10,10,10,10,10,10,10,10,10,10,10,10,10,10,10,10,10,10,10,10,10,15,5,10,10,11,9,10,10,11,9,10,10,11,9,11,9,10,10,10,10,10,10,10,10,10,10,10,10,10,10,10,11,9,10,10,10,10,10,11,9,10,11,9,10,11,10,10,10,10,10,10,10,10,10,10,10,10,10,10,10,10,10,10,10,10,10,10,10,10,10,10,10,10,10,10,10,10,10,10,10,10,10,10,10,10,10,10,10,11,9,10,10,10,10,10,10,10,10,10,10,10,10,10,10,10,10,10,10,11,9,10,11,9,10,10,10,10,10,10,10,10,10,10,10,10,10,10,10,10,10,10,10,11,9,10,10,10,10,11,9,10,10,10,11,9,10,10,10,10,10,10,10,10,10,10,10,11,9,10,10,10,10,10,10,10,10,10,10,10,10,10,10,10,10,10,10,10,10,10,10,10,10,10,10,10,10,10,10,10,10,10,10,10,10,10,10,11,9,10,10,10,10,10,10,10,10,11,9,10,10,10,10,10,31,9,10,11,9,10,10,11,10,9,10,10,10,11,10,10,9,10,10,10,10,11,9,12,9,9,10,10,10,10,11,9,10,11,9,10,11,9,10,11,9,10,10,10,10,11,9,11,9,11,9,11,9,11,9,11,9,11,10,10,9,11,10,9,11,10,9,11,10,10,10,10,10,10,10,10,10,10,10,11,9,10,10,10,10,10,10,10,10,10,10,10,10,10,10,10,10,10,10,10,10,10,10,10,10,10,10,10,10,10,10,10,10,10,10,10,10,10,10,10,10,10,10,10,10,10,10,10,10,10,10,10,10,10,10,10,10,10,10,10,10,10,10,10,10,10,10,10,10,10,10,10,10,11,9,10,10,10,10,10,10,10,10,10,10,10,10,10,10,10,11,9,10,10,10,10,10,10,10,10,10,10,11,9,10,10,11,9,10,10,11,9,10,10,11,9,10,11,9,10,10,11,9,10,10,10,11,9,11,10,9,10,11,9,11,9,11,10,10,9,10,10,10,11,10,9,10,10,11,10,9,10,10,11,10,9,11,10,9,11,9,10,11,9,10,11,9,11,9,11,10,10,10,10,10,10,10,10,10,10,10,10,10,10,10,10,10,10,10,10,10,10,10,10,10,10,10,10,10,10,10,11,9,10,10,10,10,10,10,10,10,10,10,10,10,10,10,10,10,10,10,10,10,10,10,10,12,8,10,10,10,10,10,10,10,10,10,10,10,10,10,10,10,10,11,9,10,10,11,9,10,10,11,9,10,10,10,10,10,10,10,10,10,10,10,10,10,10,10,11,9,10,10,10,10,10,10,10,10,10,10,10,10,11,9,11,9,10,10,11,10,9,10,10,11,9,10,11,9,10,11,9,11,12,7,10,11,9,10,10,10,11,10,10]",
        "number_of_frames": 785,
        "canvas_width": 2560,
        "canvas_height": 1440,
        "blanking": false,
        "staircase": "trial-1-1",
        "trial_type": "disks",
        "trial_index": 1,
        "time_elapsed": 11120,
        "internal_node_id": "0.0-1.0-0.0-0.0",
        "valid_keypress": true,
        "stair_correct": true,
        "lower_limit_reached": false,
        "upper_limit_reached": false,
        "bestCheckCount": 0,
        "finalCheckCount": 0,
        "wrongAtBestLevel": 0,
        "correctAtLowerLevel": 0,
        "finalResult": "0.90",
        "passFrequency": 0,
        "limitreach": false,
        "staircaseTrialId": "trial-1-1"
    },
    {
        "rt": 1473,
        "stimulus": "",
        "key_press": 39,
        "trial_type": "html-keyboard-response",
        "trial_index": 2,
        "time_elapsed": 12597,
        "internal_node_id": "0.0-1.0-1.0-0.0"
    },
    {
        "rt": -1,
        "key_press": 37,
        "correct": false,
        "id": "disk-condition-2-2",
        "choices": [
            "leftarrow",
            "rightarrow",
            "esc",
            "s"
        ],
        "correct_choice": [
            "LEFTARROW"
        ],
        "trial_duration": 8000,
        "response_ends_trial": true,
        "central_intensity": 0.75,
        "surround_intensity": 0.45,
        "central_radius": 15,
        "surround_radius": 30,
        "ratio": 2,
        "speed": 1124,
        "direction": -1,
        "field_spacing": 236,
        "background_color": "gray",
        "frame_rate": 10.8,
        "frame_rate_array": "[1,7,1,20,15,10,5,8,10,10,10,11,9,10,10,10,10,11,9,10,10,10,10,10,10,10,10,10,10,10,10,10,10,10,10,11,9,10,10,10,10,10,10,10,10,10,10,10,10,10,11,9,10,10,11,9,10,10,10,11,10,10,9,10,10,10,10,10,11,10,9,11,9,11,10,9,10,10,10,11,9,10,10,10,10,10,10,10,10,10,11,10,9,11,9,10,10,10,11,10,10,9,10,10,10,10,11,10,9,10,11,10,9,11,9,11,10,9,11,10,9,11,10,9,10,10,11,10,9,10,11,10,10,9,11,10,9,11,10,10,9,11,10,10,10,10,10,10,10,10,10,10,10,10,10,10,10,10,10,10,10,10,10,10,10,10,10,10,11,9,10,10,10,10,11,10,9,10,10,10,10,10,10,11,9,10,11,9,10,10,10,10,10,10,10,10,10,10,10,10,10,10,10,10,10,10,11,9,10,10,10,10,10,10,11,9,10,10,10,11,9,10,10,10,11,9,10,10,312,8,10,10,10,10,10,10,10,11,9,11,9,10,11,10,9,11,9,11,9,11,10,9,10,10,10,11,9,10,10,10,11,10,10,9,10,11,9,10,11,9,10,11,9,10,10,10,11,9,11,9,10,10,11,9,10,10,10,11,10,9,10,11,10,9,11,10,10,10,10,9,11,10,10,10,11,9,10,10,10,10,10,10,10,10,10,10,10,10,10,10,10,10,10,10,10,10,10,10,10,10,10,10,10,10,10,10,10,10,10,10,10,10,10,10,10,11,9,10,10,10,10,10,10,10,11,9,10,10,10,10,10,10,10,11,9,10,10,10,10,10,10,10,10,10,10,11,9,11,9,11,9,11,10,9,10,10,10,10,11,10,9,10,10,10,10,10,10,10,10,10,10,10,10,10,10,10,10,10,10,10,11,9,10,11,9,10,10,10,10,10,10,12,8,10,10,11,9,10,10,10,10,10,10,11,9,10,10,11,9,10,11,9,10,11,9,10,10,11,10,9,10,11,9,11,9,10,10,10,11,9,11,9,11,10,10,9,11,9,11,10,9,11,10,10,9,11,10,10,10,10,10,10,10,10,10,10,10,11,9,10,10,10,10,10,10,10,11,9,10,10,10,10,10,11,11,8,10,10,11,9,10,10,10,10,10,10,10,10,10,10,10,10,10,10,10,10,10,10,10,11,9,10,10,11,10,9,10,10,10,10,10,10,10,10,10,10,10,10,10,10,11,9,11,9,11,9,10,11,9,10,10,10,10,11,9,10,10,10,10,10,10,10,11,9,11,9,11,9,10,10,10,10,49,1,10,10,10,11,9,10,10,10,10,10,10,10,10,10,10,10,11,9,10,10,10,10,10,11,9,10,10,10,10,10,10,10,10,10,10,10,10,10,10,10,10,10,10,10,10,10,10,10,11,9,10,282,9,10,10,10,10,10,10,10,10,10,10,10,10,10,10,10,10,10,10,10,10,10,10,10,10,10,10,10,10,10,10,10,10,10,10,10,10,10,10,11,9,10,10,10,10,10,10,10,10,10,10,10,10,10,10,10,10,10,11,9,10,10,10,10,10,10,10,10,10,10,10,10,10,10,10,10,10,10,10,10,10,10,10,10,10,10,10,10,10,10,10,10,10,10,10,11,9,10,10,10,10,10,10,11]",
        "number_of_frames": 740,
        "canvas_width": 2560,
        "canvas_height": 1440,
        "blanking": false,
        "staircase": "trial-1-1",
        "trial_type": "disks",
        "trial_index": 3,
        "time_elapsed": 21672,
        "internal_node_id": "0.0-1.1-0.1-0.1",
        "valid_keypress": true,
        "stair_correct": true,
        "lower_limit_reached": false,
        "upper_limit_reached": false,
        "bestCheckCount": 0,
        "finalCheckCount": 0,
        "wrongAtBestLevel": 0,
        "correctAtLowerLevel": 0,
        "finalResult": "0.80",
        "passFrequency": 0,
        "limitreach": false,
        "staircaseTrialId": "trial-1-2"
    },
    {
        "rt": 1282,
        "stimulus": "",
        "key_press": 37,
        "trial_type": "html-keyboard-response",
        "trial_index": 4,
        "time_elapsed": 22958,
        "internal_node_id": "0.0-1.1-1.1-0.1"
    },
    {
        "rt": -1,
        "key_press": 39,
        "correct": false,
        "id": "disk-condition-3-1",
        "choices": [
            "leftarrow",
            "rightarrow",
            "esc",
            "s"
        ],
        "correct_choice": [
            "RIGHTARROW"
        ],
        "trial_duration": 8000,
        "response_ends_trial": true,
        "central_intensity": 0.75,
        "surround_intensity": 0.45,
        "central_radius": 12,
        "surround_radius": 24,
        "ratio": 2,
        "speed": 1124,
        "direction": 1,
        "field_spacing": 148,
        "background_color": "gray",
        "frame_rate": 9.98876404494382,
        "frame_rate_array": "[1,8,1,18,14,8,7,10,10,10,10,10,10,10,10,10,10,10,10,10,10,10,10,10,10,10,10,10,10,10,13,7,10,10,10,11,9,10,10,10,10,10,10,10,10,10,10,10,10,10,10,10,10,10,10,10,10,10,10,10,10,10,10,10,10,10,10,10,10,10,10,10,10,10,10,10,11,9,10,10,10,10,10,11,9,10,11,9,10,10,10,10,10,10,10,11,9,10,10,10,10,10,10,10,10,10,10,11,9,10,10,10,10,10,10,10,10,10,10,10,10,11,9,10,10,10,10,10,10,10,11,9,10,10,10,10,10,10,10,10,10,10,10,10,10,10,11,9,10,10,10,10,11,9,11,9,10,10,10,10,10,10,10,11,10,10,9,11,9,10,11,9,11,10,10,10,10,10,10,10,9,11,10,10,9,11,10,10,10,9,11,10,10,10,10,10,11,9,10,10,10,10,10,10,10,10,10,10,10,10,11,9,10,10,10,10,10,11,9,11,9,10,10,10,10,10,10,10,10,10,10,10,11,9,10,10,10,11,10,10,9,10,10,11,9,11,9,11,9,10,10,10,10,10,10,10,10,11,10,9,10,11,9,10,10,11,9,11,9,10,10,10,10,11,9,10,10,10,10,10,10,10,10,11,9,10,10,11,10,9,10,10,10,10,10,10,11,10,10,9,10,10,11,10,10,9,10,10,11,10,9,10,10,10,10,11,9,11,9,10,10,10,11,9,10,10,10,11,9,10,11,10,9,11,9,11,9,10,10,10,11,10,10,10,10,10,9,10,10,10,10,11,10,10,9,11,9,10,10,11,10,10,10,9,12,8,11,9,11,10,10,10,10,10,10,10,10,10,10,10,10,10,10,10,10,10,10,10,10,10,10,10,10,10,10,10,11,9,10,10,10,10,10,10,10,11,9,10,10,10,10,10,10,10,10,10,10,10,10,10,10,11,9,11,9,11,9,10,10,11,9,10,10,10,10,10,10,10,10,11,9,10,11,10,9,11,9,10,10,10,10,10,10,11,10,9,10,10,11,9,10,10,10,10,10,24,3,3,10,17,3,11,10,9,10,10,10,10,10,10,10,11,9,10,10,10,11,9,10,10,10,10,10,10,10,10,11,9,12,9,9,10,11,9,10,11,9,10,11,9,10,10,11,10,9,10,11,9,10,11,10,9,11,9,10,10,10,10,11,9,11,9,10,10,10,10,11,9,11,9,11,9,11,10,10,10,10,9,11,10,10,10,11,9,10,10,10,10,10,10,10,10,10,10,10,10,10,10,10,10,10,10,10,10,10,10,10,10,10,11,9,10,10,10,10,10,10,10,10,10,10,10,10,10,10,10,10,10,10,11,10,9,11,9,10,10,11,9,10,10,10,10,11,9,10,10,10,10,10,10,10,10,10,10,10,10,10,10,10,10,10,10,10,10,10,10,10,10,10,10,10,10,10,11,10,9,11,9,10,10,10,10,10,10,10,10,10,11,9,10,10,12,8,10,10,11,9,10,10,10,10,11,9,10,10,10,11,9,10,10,10,10,10,10,10,10,10,10,11,10,9,10,10,10,10,11,10,9,10,11,9,10,10,10,11,10,10,9,11,9,11,10,10,10,9,10,11,9,11,9,11,10,9,11,10,9,10,10,11,9,11,10,10,10,10,9,11,10,10,10,11,9,10,10,10,10,10,10,10,10,10,10,10,11,9,10,10,10,10,11,9,10,10,10,10,10,11,9,10,10,10,11,9,10,10,10,11,9,10,10,10,10,10,10,10,10,10,10,10,10,11,9,10,10,10,11,9,10,10,10,10]",
        "number_of_frames": 801,
        "canvas_width": 2560,
        "canvas_height": 1440,
        "blanking": false,
        "staircase": "trial-1-1",
        "trial_type": "disks",
        "trial_index": 5,
        "time_elapsed": 32049,
        "internal_node_id": "0.0-1.2-0.2-0.2",
        "valid_keypress": true,
        "stair_correct": true,
        "lower_limit_reached": false,
        "upper_limit_reached": false,
        "bestCheckCount": 0,
        "finalCheckCount": 0,
        "wrongAtBestLevel": 0,
        "correctAtLowerLevel": 0,
        "finalResult": "0.70",
        "passFrequency": 0,
        "limitreach": false,
        "staircaseTrialId": "trial-1-3"
    },
    {
        "rt": 1372,
        "stimulus": "",
        "key_press": 39,
        "trial_type": "html-keyboard-response",
        "trial_index": 6,
        "time_elapsed": 33431,
        "internal_node_id": "0.0-1.2-1.2-0.2"
    },
    {
        "rt": -1,
        "key_press": 39,
        "correct": false,
        "id": "disk-condition-4-2",
        "choices": [
            "leftarrow",
            "rightarrow",
            "esc",
            "s"
        ],
        "correct_choice": [
            "LEFTARROW"
        ],
        "trial_duration": 8000,
        "response_ends_trial": true,
        "central_intensity": 0.75,
        "surround_intensity": 0.45,
        "central_radius": 9.5,
        "surround_radius": 19,
        "ratio": 2,
        "speed": 1124,
        "direction": -1,
        "field_spacing": 148,
        "background_color": "gray",
        "frame_rate": 9.9925,
        "frame_rate_array": "[0,8,2,18,18,8,5,11,9,10,11,10,11,9,10,9,11,9,11,9,10,10,11,9,10,11,10,10,10,9,11,10,9,11,10,9,10,11,10,10,10,10,10,9,12,8,11,10,10,10,9,11,10,10,10,10,10,10,10,10,10,10,10,10,10,10,10,10,10,10,10,10,10,10,10,10,10,10,10,10,10,11,9,10,10,10,10,10,10,10,10,10,10,10,10,10,10,10,10,11,9,10,10,10,10,10,10,10,10,10,10,11,9,10,10,10,10,10,10,10,10,10,10,10,10,10,10,10,10,10,10,10,10,10,10,10,10,10,10,10,10,10,10,10,10,10,10,10,10,10,10,10,10,11,9,10,10,10,10,10,10,10,10,10,11,10,9,10,10,10,10,11,14,7,8,11,9,11,9,10,10,11,9,11,9,11,9,10,10,10,10,10,10,11,9,10,11,9,11,10,9,11,9,11,9,10,12,9,10,10,9,10,11,10,9,11,9,10,10,11,10,10,10,10,10,10,9,10,11,10,10,10,10,10,10,10,10,10,10,10,10,10,10,10,10,10,10,10,10,10,10,10,10,10,10,11,9,10,10,10,10,10,10,10,10,10,10,10,10,10,10,10,10,10,10,10,10,10,10,10,10,10,10,10,10,10,10,10,10,10,10,10,10,11,9,10,10,11,9,10,10,11,9,10,10,10,10,10,10,10,10,10,10,10,10,10,10,10,10,10,10,10,10,10,10,10,10,10,10,10,11,9,10,10,10,10,10,10,10,10,10,10,11,9,10,11,10,9,10,10,10,10,11,9,10,11,9,11,10,9,10,10,10,11,9,10,10,11,9,10,10,11,10,10,10,9,11,10,10,10,9,10,10,11,9,11,9,11,9,10,11,10,10,10,9,11,9,11,9,11,10,10,10,9,11,10,10,9,11,10,10,10,10,10,10,10,10,10,10,10,10,10,10,10,10,10,10,10,10,10,10,10,10,10,10,10,10,10,10,10,10,10,10,10,10,10,10,10,10,10,10,10,10,10,10,10,10,10,10,10,10,10,10,11,9,10,10,10,10,11,9,11,9,10,10,10,11,9,10,10,10,10,10,10,10,10,10,10,10,10,10,10,10,11,9,11,10,9,10,10,10,10,10,10,11,9,10,11,9,10,10,10,10,11,9,10,10,10,10,10,10,10,10,10,10,11,9,10,10,10,10,10,10,10,10,10,10,10,11,9,11,9,11,9,11,9,11,10,10,10,9,10,11,9,11,9,11,9,11,10,9,10,11,9,11,10,10,10,10,9,11,9,10,11,9,11,9,11,11,8,11,9,10,10,11,9,11,10,10,10,10,10,11,9,10,10,10,10,10,10,10,10,10,10,10,10,10,10,10,10,10,10,10,10,10,10,10,10,10,10,10,10,10,10,10,10,10,10,10,10,10,10,10,10,10,10,10,10,10,10,10,10,10,10,11,9,10,10,11,9,10,10,10,10,10,10,10,10,10,10,10,10,10,10,10,10,10,10,11,9,10,10,10,10,11,9,10,10,10,10,10,10,10,10,10,11,10,9,10,10,10,10,10,10,10,10,10,11,10,9,10,10,11,9,11,9,10,11,10,9,10,10,11,10,9,10,10,10,10,10,11,9,10,10,11,10,9,10,11,10,9,10,11,9,11,9,10,10,10,11,10,9,10,10,10,10,10,11,10,10,9,11,10,9,10,11,10,10,10,10,9,11,10,9,11,10,10,10,10,10,10,10,10,10,10,10,10,10,10,10,10,11,9,10,10,10,10,10,10,10,10,10,10,10,10,10,10,10,10,10]",
        "number_of_frames": 800,
        "canvas_width": 2560,
        "canvas_height": 1440,
        "blanking": false,
        "staircase": "trial-1-1",
        "trial_type": "disks",
        "trial_index": 7,
        "time_elapsed": 42481,
        "internal_node_id": "0.0-1.3-0.3-0.3",
        "valid_keypress": true,
        "stair_correct": false,
        "lower_limit_reached": false,
        "upper_limit_reached": false,
        "bestCheckCount": 0,
        "finalCheckCount": 0,
        "wrongAtBestLevel": 0,
        "correctAtLowerLevel": 0,
        "finalResult": "0.70",
        "passFrequency": 0,
        "limitreach": false,
        "staircaseTrialId": "trial-1-4"
    },
    {
        "rt": 1305,
        "stimulus": "",
        "key_press": 39,
        "trial_type": "html-keyboard-response",
        "trial_index": 8,
        "time_elapsed": 43788,
        "internal_node_id": "0.0-1.3-1.3-0.3"
    },
    {
        "rt": -1,
        "key_press": 37,
        "correct": false,
        "id": "disk-condition-3-2",
        "choices": [
            "leftarrow",
            "rightarrow",
            "esc",
            "s"
        ],
        "correct_choice": [
            "LEFTARROW"
        ],
        "trial_duration": 8000,
        "response_ends_trial": true,
        "central_intensity": 0.75,
        "surround_intensity": 0.45,
        "central_radius": 12,
        "surround_radius": 24,
        "ratio": 2,
        "speed": 1124,
        "direction": -1,
        "field_spacing": 148,
        "background_color": "gray",
        "frame_rate": 10.527631578947368,
        "frame_rate_array": "[1,7,10,9,22,8,9,10,10,10,10,11,10,9,10,12,8,11,9,10,10,10,10,12,8,11,9,10,11,10,9,10,10,10,10,10,10,11,9,10,10,11,12,7,11,9,10,10,10,10,11,10,9,11,10,10,10,9,10,10,10,10,11,11,9,10,10,9,12,9,10,10,10,9,11,10,10,10,9,10,11,10,9,11,10,10,9,11,10,9,10,10,11,10,10,10,10,10,10,10,10,10,10,10,10,10,10,10,10,10,10,10,10,10,10,10,10,10,10,10,10,10,10,10,10,10,10,10,10,10,10,10,10,10,10,10,10,10,10,10,10,10,11,9,10,10,10,10,10,10,11,9,11,9,10,10,10,10,11,9,10,10,10,10,11,9,10,10,10,10,10,10,10,10,10,10,10,10,10,10,10,10,10,10,10,10,10,10,10,10,10,10,10,10,11,9,10,10,10,10,10,10,11,10,10,9,10,10,10,10,11,9,10,11,9,11,11,9,10,9,11,9,10,10,11,9,10,10,11,9,11,9,11,10,10,10,9,10,10,10,10,11,9,10,10,10,11,9,11,9,10,10,11,9,11,10,10,9,10,10,11,9,10,10,11,9,11,10,10,9,11,9,11,10,10,10,10,10,10,10,10,10,10,10,11,9,10,10,10,10,10,10,10,10,10,10,10,10,10,10,10,10,10,10,10,10,10,10,10,10,10,10,10,10,10,10,11,9,10,10,10,10,11,10,9,10,11,9,10,10,10,11,9,10,10,10,11,9,10,10,10,10,10,10,10,10,10,10,10,10,10,10,10,10,10,10,10,10,10,10,11,10,9,11,10,9,11,9,10,11,9,10,10,11,9,10,10,10,11,9,10,10,10,10,11,9,10,10,10,10,11,9,10,10,10,10,10,11,9,10,11,9,10,10,10,10,10,11,10,10,9,11,9,10,10,10,11,9,11,9,10,10,11,9,10,10,11,10,10,9,10,10,11,10,9,11,10,9,10,11,10,10,10,10,9,11,10,9,10,10,11,10,10,10,9,11,10,10,10,10,10,10,10,10,10,10,10,10,10,10,10,10,10,11,9,10,10,10,10,10,10,10,10,10,10,10,10,10,10,10,10,10,10,10,10,10,10,10,10,10,10,10,10,10,10,10,10,10,10,10,10,10,10,11,9,10,11,10,9,10,10,10,10,10,10,10,10,10,10,11,9,10,10,10,10,10,10,10,10,10,10,11,9,10,10,10,10,10,11,9,11,9,10,10,10,11,9,10,10,11,9,10,10,10,10,10,10,11,9,11,9,10,10,11,9,10,10,11,9,10,10,10,10,11,9,10,11,10,9,10,10,10,11,9,11,10,9,11,9,10,10,11,9,10,11,9,10,10,11,10,10,9,10,10,11,10,10,9,10,10,10,11,10,10,10,10,10,10,10,10,10,10,10,10,10,10,11,9,10,10,10,10,10,10,10,10,10,10,10,10,10,10,10,10,10,10,10,10,10,414,7,9,10,11,9,10,10,10,10,11,10,9,10,10,10,11,10,9,11,10,10,9,10,10,10,11,9,10,10,10,11,10,9,10,10,11,9,11,10,10,9,10,10,11,9,11,9,10,11,9,11,10,10,9,10,10,11,9,10,11,9,11,10,10,10,10,10,9,11,10,10,10,10,10,10,10,10,10,10,10,10,10,10,10,10,10,10,10,10,15,5,10,10,10,10,10,10,10,10,10]",
        "number_of_frames": 760,
        "canvas_width": 2560,
        "canvas_height": 1440,
        "blanking": false,
        "staircase": "trial-1-1",
        "trial_type": "disks",
        "trial_index": 9,
        "time_elapsed": 52842,
        "internal_node_id": "0.0-1.4-0.4-0.4",
        "valid_keypress": true,
        "stair_correct": true,
        "lower_limit_reached": false,
        "upper_limit_reached": false,
        "bestCheckCount": 1,
        "finalCheckCount": 0,
        "wrongAtBestLevel": 0,
        "correctAtLowerLevel": 0,
        "finalResult": "0.70",
        "passFrequency": 0,
        "limitreach": false,
        "staircaseTrialId": "trial-1-5"
    },
    {
        "rt": 1066,
        "stimulus": "",
        "key_press": 37,
        "trial_type": "html-keyboard-response",
        "trial_index": 10,
        "time_elapsed": 53910,
        "internal_node_id": "0.0-1.4-1.4-0.4"
    },
    {
        "rt": -1,
        "key_press": 39,
        "correct": false,
        "id": "disk-condition-3-2",
        "choices": [
            "leftarrow",
            "rightarrow",
            "esc",
            "s"
        ],
        "correct_choice": [
            "LEFTARROW"
        ],
        "trial_duration": 8000,
        "response_ends_trial": true,
        "central_intensity": 0.75,
        "surround_intensity": 0.45,
        "central_radius": 12,
        "surround_radius": 24,
        "ratio": 2,
        "speed": 1124,
        "direction": -1,
        "field_spacing": 148,
        "background_color": "gray",
        "frame_rate": 9.99875,
        "frame_rate_array": "[0,13,4,28,0,10,10,10,10,11,9,10,10,10,10,10,11,9,11,9,11,9,11,9,10,10,12,9,9,10,10,10,10,10,11,9,10,10,10,10,10,10,11,9,10,10,10,10,10,10,10,12,8,12,8,10,10,10,11,9,10,11,9,10,10,10,10,10,11,9,11,9,10,10,10,11,10,10,9,10,11,11,10,9,9,10,10,10,12,8,10,10,10,10,10,11,10,9,10,10,10,10,10,12,8,10,11,9,10,10,10,11,10,10,9,11,10,10,10,10,10,10,10,10,10,10,10,10,10,10,10,10,10,11,9,10,10,10,10,10,10,10,10,10,10,10,10,10,10,10,10,10,10,10,10,10,10,10,10,10,10,10,10,10,10,10,10,10,11,9,10,10,10,10,10,10,10,10,10,10,10,10,10,11,9,10,10,11,10,9,10,10,10,10,11,9,10,10,10,10,10,10,10,10,10,10,10,10,10,10,10,10,10,10,10,10,10,10,11,9,10,10,10,10,10,10,10,10,10,10,10,10,10,10,10,10,11,9,10,10,10,10,10,10,10,10,11,9,10,11,9,10,10,10,10,10,10,11,9,10,10,10,10,10,10,11,9,10,10,10,10,10,10,10,10,10,11,9,10,11,10,9,10,10,10,10,10,10,10,11,10,9,11,9,11,11,8,10,10,10,11,9,11,10,10,10,10,10,11,9,11,9,10,10,10,10,10,10,10,10,10,10,10,10,10,10,10,10,10,10,10,10,10,10,10,10,10,10,10,10,10,10,10,10,10,10,10,10,10,10,10,10,10,10,10,10,10,10,10,10,10,10,10,10,10,10,10,10,10,10,10,10,10,10,10,10,10,10,10,10,10,10,10,10,10,10,10,10,10,10,10,10,10,10,10,10,10,10,10,10,10,10,10,10,10,10,10,10,10,10,10,10,10,10,10,10,10,10,10,10,10,10,10,10,10,10,10,10,12,8,10,10,10,10,10,10,10,11,9,10,10,12,8,10,10,10,10,10,10,10,10,10,10,10,10,10,10,10,10,10,10,10,10,10,11,9,10,11,9,10,10,11,9,10,10,10,10,10,11,11,9,11,9,10,10,10,10,10,10,10,10,10,10,10,10,10,10,10,10,10,10,10,10,10,11,9,10,10,10,10,10,10,10,10,10,10,10,10,10,10,10,10,10,10,10,10,10,10,11,9,10,10,10,10,10,10,10,10,10,10,11,9,10,11,9,10,10,10,10,10,10,10,11,9,10,10,10,10,10,10,10,10,10,10,10,10,10,10,10,10,10,10,10,10,10,11,10,9,10,11,9,10,10,10,10,10,10,10,10,10,10,10,11,9,10,10,10,11,9,10,10,10,10,10,10,10,11,9,11,9,10,11,9,10,11,9,10,10,10,10,10,10,10,10,10,10,10,10,10,11,10,10,9,10,10,10,10,11,9,10,10,10,10,10,11,9,10,10,11,11,9,9,10,10,11,9,11,9,11,10,9,12,9,10,10,10,10,10,10,10,10,10,10,10,10,10,10,10,10,10,10,10,10,10,10,10,10,10,10,10,10,10,10,10,10,10,10,10,10,10,10,10,10,10,10,10,10,10,10,10,10,10,10,10,10,10,10,10,10,10,10,10,10,10,10,10,10,10,10,10,10,10,10,10,10,10,10,10,10,10,10,10,10,10,10,10,10,10,10,10,11,9,10,10,10,10,10,10,10,10,10,10,10,10,10,10,10,11,9,10,10,10,10,10,10,10,10,10,10,10,10,10,10,10,10,10,10,10,11,9,10,10,10,10,10,10,10,11,9,10]",
        "number_of_frames": 800,
        "canvas_width": 2560,
        "canvas_height": 1440,
        "blanking": false,
        "staircase": "trial-1-1",
        "trial_type": "disks",
        "trial_index": 11,
        "time_elapsed": 62967,
        "internal_node_id": "0.0-1.5-0.5-0.5",
        "valid_keypress": true,
        "stair_correct": false,
        "lower_limit_reached": false,
        "upper_limit_reached": false,
        "bestCheckCount": 2,
        "finalCheckCount": 0,
        "wrongAtBestLevel": 1,
        "correctAtLowerLevel": 0,
        "finalResult": "0.72",
        "passFrequency": 0,
        "limitreach": false,
        "staircaseTrialId": "trial-1-6"
    },
    {
        "rt": 1007,
        "stimulus": "",
        "key_press": 39,
        "trial_type": "html-keyboard-response",
        "trial_index": 12,
        "time_elapsed": 63976,
        "internal_node_id": "0.0-1.5-1.5-0.5"
    },
    {
        "rt": -1,
        "key_press": 39,
        "correct": false,
        "id": "disk-condition-3-1",
        "choices": [
            "leftarrow",
            "rightarrow",
            "esc",
            "s"
        ],
        "correct_choice": [
            "RIGHTARROW"
        ],
        "trial_duration": 8000,
        "response_ends_trial": true,
        "central_intensity": 0.75,
        "surround_intensity": 0.45,
        "central_radius": 12,
        "surround_radius": 24,
        "ratio": 2,
        "speed": 1124,
        "direction": 1,
        "field_spacing": 148,
        "background_color": "gray",
        "frame_rate": 10.323870967741936,
        "frame_rate_array": "[1,10,6,10,14,6,10,10,10,9,11,10,10,10,10,10,10,10,10,10,10,10,10,10,10,10,10,10,10,10,10,10,10,10,10,10,10,10,10,10,10,10,10,15,5,10,16,4,10,10,10,10,10,10,10,10,10,10,10,11,9,10,10,10,11,9,11,9,10,10,10,10,10,10,10,10,10,11,9,10,10,10,10,10,10,10,10,10,10,10,10,10,10,11,9,10,10,10,10,10,10,10,10,10,10,10,11,10,9,10,10,11,9,10,10,177,3,10,10,11,9,10,10,10,10,10,10,10,11,9,10,10,10,10,10,10,11,9,10,11,10,10,10,9,10,10,11,9,10,10,10,10,10,11,9,10,10,10,11,9,11,9,11,10,9,11,10,9,10,11,10,10,10,10,10,9,11,10,10,10,10,10,10,10,10,10,10,10,10,10,10,10,10,10,11,9,10,10,10,10,10,10,10,10,10,11,9,10,10,10,10,10,10,10,10,10,10,10,10,10,10,10,10,10,10,10,10,10,10,10,10,10,10,10,10,10,10,10,10,10,10,10,10,11,9,10,10,10,10,11,9,10,10,11,9,10,10,10,10,11,9,10,11,10,9,10,11,9,10,10,10,10,10,10,11,10,9,10,10,10,10,10,10,11,9,10,10,11,9,11,9,11,9,11,9,10,10,11,9,10,11,9,11,9,10,10,11,9,11,9,10,11,9,11,10,10,10,9,10,10,10,10,10,11,9,11,9,10,10,10,10,11,9,11,10,10,9,11,10,10,9,11,10,12,8,10,10,10,10,10,10,10,10,10,10,10,10,10,9,13,8,10,10,10,10,10,10,10,10,10,10,10,10,10,11,9,10,10,10,10,10,10,10,10,10,10,10,10,10,10,10,10,10,11,9,10,10,10,11,9,10,10,10,10,10,10,11,10,9,10,10,11,9,10,11,9,10,10,10,10,10,10,10,10,10,10,11,10,9,10,10,10,10,10,10,10,10,10,10,11,10,9,10,11,9,10,10,10,10,10,10,10,10,10,10,10,11,9,10,10,10,10,10,11,9,10,11,9,10,10,11,10,9,10,10,11,9,10,11,9,10,11,10,10,10,9,10,11,10,9,10,10,10,10,10,10,10,11,9,10,10,10,10,10,10,10,10,10,10,11,10,10,10,10,10,9,10,10,11,9,11,10,10,9,11,9,12,9,9,11,10,10,10,10,9,11,10,10,10,10,10,10,10,10,10,10,10,10,10,10,10,10,10,10,10,10,10,10,10,10,10,11,9,10,10,10,10,10,10,10,10,10,10,10,11,9,10,10,10,10,10,10,10,10,11,9,11,9,10,10,11,9,10,10,10,10,11,9,10,10,10,10,11,9,10,10,11,9,10,10,10,10,11,9,117,3,10,10,10,10,10,10,11,9,10,10,10,10,10,10,10,10,10,10,10,10,10,10,10,10,11,9,10,10,10,11,9,11,9,10,11,9,11,9,10,10,10,10,10,10,10,10,11,10,9,11,9,11,9,11,9,11,9,10,10,11,9,10,10,10,11,9,11,9,10,11,9,11,9,10,10,11,9,11,9,11,9,11,10,10,10,10,9,12,10,9,10,10,10,10,10,10,10,10,10,10,10,10,10,10,10,10,10,10,10,10,10,10,10,10,10,10,10,10,10,10,10,11,9,10,10,10,10,10,10,10,10,10,11,9,10,10,10,11,9,11,9,11,10,10,9,10,11,9,10,10,10,10,11,9,10,10,10,10,10]",
        "number_of_frames": 775,
        "canvas_width": 2560,
        "canvas_height": 1440,
        "blanking": false,
        "staircase": "trial-1-1",
        "trial_type": "disks",
        "trial_index": 13,
        "time_elapsed": 73031,
        "internal_node_id": "0.0-1.6-0.6-0.6",
        "valid_keypress": true,
        "stair_correct": true,
        "lower_limit_reached": false,
        "upper_limit_reached": false,
        "bestCheckCount": 3,
        "finalCheckCount": 0,
        "wrongAtBestLevel": 1,
        "correctAtLowerLevel": 0,
        "finalResult": "0.72",
        "passFrequency": 0,
        "limitreach": false,
        "staircaseTrialId": "trial-1-7"
    },
    {
        "rt": 1195,
        "stimulus": "",
        "key_press": 39,
        "trial_type": "html-keyboard-response",
        "trial_index": 14,
        "time_elapsed": 74228,
        "internal_node_id": "0.0-1.6-1.6-0.6"
    },
    {
        "rt": -1,
        "key_press": 39,
        "correct": false,
        "id": "disk-condition-3-1",
        "choices": [
            "leftarrow",
            "rightarrow",
            "esc",
            "s"
        ],
        "correct_choice": [
            "RIGHTARROW"
        ],
        "trial_duration": 8000,
        "response_ends_trial": true,
        "central_intensity": 0.75,
        "surround_intensity": 0.45,
        "central_radius": 12,
        "surround_radius": 24,
        "ratio": 2,
        "speed": 1124,
        "direction": 1,
        "field_spacing": 148,
        "background_color": "gray",
        "frame_rate": 10.156289707750952,
        "frame_rate_array": "[0,13,3,13,21,9,9,11,9,10,11,10,9,10,11,9,11,9,10,10,10,10,10,11,9,11,9,11,9,10,10,11,10,10,9,10,10,10,11,9,10,11,9,10,11,10,9,11,9,11,9,11,9,10,11,10,10,9,12,8,11,10,10,9,11,10,10,10,10,10,10,10,10,10,10,10,10,10,10,10,10,10,10,10,10,10,10,10,10,10,10,10,10,10,10,10,10,10,10,10,10,10,10,10,10,10,10,10,10,10,11,9,10,11,9,10,10,10,11,10,9,10,10,10,10,10,10,11,9,10,10,10,10,10,10,10,10,10,10,10,11,9,10,10,10,10,10,10,10,10,10,10,10,10,10,10,10,10,11,9,11,9,10,10,10,10,10,10,10,10,10,10,10,10,10,11,9,10,10,10,10,10,10,11,10,9,10,10,11,9,11,9,10,10,11,9,11,9,11,9,11,9,10,10,10,10,11,9,11,9,10,10,11,9,10,10,10,10,10,11,10,10,10,9,11,9,14,7,10,10,10,9,11,10,9,11,10,10,10,10,10,9,11,9,11,9,11,10,10,10,10,10,10,10,10,10,10,10,10,10,10,10,10,10,10,10,10,10,10,10,10,10,10,10,10,10,10,10,10,10,11,9,10,11,9,10,10,10,10,11,9,10,10,10,10,10,10,10,10,10,10,10,10,11,9,10,10,10,11,9,10,10,10,10,10,10,10,10,10,10,10,10,10,10,10,10,10,10,11,9,10,10,10,10,10,11,9,10,10,10,10,10,10,10,10,10,11,9,11,9,10,10,10,10,10,10,10,10,10,10,10,10,10,11,9,10,10,10,10,10,10,11,9,10,10,10,10,11,9,10,10,10,10,10,10,11,10,9,10,10,10,11,9,10,10,10,10,10,10,11,9,11,10,9,10,10,11,9,11,10,9,11,10,9,11,10,10,9,11,10,9,10,11,10,10,10,9,11,10,10,10,9,11,10,10,10,10,10,10,11,9,10,10,10,10,10,10,11,9,10,10,10,10,10,10,10,10,10,10,10,10,10,10,10,10,10,10,10,10,10,10,10,10,10,11,9,10,10,10,10,10,10,10,10,10,10,10,10,10,10,10,10,11,9,10,10,10,10,10,10,10,10,10,10,10,10,10,10,10,10,10,10,10,10,10,10,10,10,11,9,10,10,10,10,10,10,10,10,11,9,10,10,10,10,10,10,10,10,10,10,10,10,10,10,10,10,10,10,10,10,11,9,10,10,10,10,10,11,10,10,9,11,9,10,10,11,9,11,10,10,9,11,9,11,10,10,9,10,10,10,11,10,9,11,9,10,10,13,7,11,10,10,10,10,10,10,10,10,10,9,10,11,10,10,9,11,10,10,10,11,9,10,10,10,10,10,10,10,10,10,10,10,10,10,10,10,10,10,10,10,10,10,10,10,10,10,10,10,10,11,9,10,10,10,10,10,10,10,10,10,10,10,10,10,10,10,10,10,10,11,9,10,10,10,10,10,10,10,10,10,10,10,10,10,10,10,10,10,10,10,10,10,11,10,10,10,9,10,11,9,10,10,11,10,9,10,10,10,10,11,9,10,10,10,10,10,10,10,10,10,10,10,10,11,9,11,10,10,10,10,9,10,10,11,9,10,10,10,135,5,10,10,10,10,10,10,10,10,10,10,11,9,10,10,10,10,10,10,10,11,9,10,10,11,9,10,10,11,9,12,8,10,10,10,11,9,10,10,10,10,10,11,9,10,10,10,11,9,10,11,9,11,9,11,9,11,10]",
        "number_of_frames": 787,
        "canvas_width": 2560,
        "canvas_height": 1440,
        "blanking": false,
        "staircase": "trial-1-1",
        "trial_type": "disks",
        "trial_index": 15,
        "time_elapsed": 83286,
        "internal_node_id": "0.0-1.7-0.7-0.7",
        "valid_keypress": true,
        "stair_correct": true,
        "lower_limit_reached": false,
        "upper_limit_reached": false,
        "bestCheckCount": 4,
        "finalCheckCount": 0,
        "wrongAtBestLevel": 1,
        "correctAtLowerLevel": 0,
        "finalResult": "0.72",
        "passFrequency": 0,
        "limitreach": false,
        "staircaseTrialId": "trial-1-8"
    },
    {
        "rt": 1152,
        "stimulus": "",
        "key_press": 39,
        "trial_type": "html-keyboard-response",
        "trial_index": 16,
        "time_elapsed": 84440,
        "internal_node_id": "0.0-1.7-1.7-0.7"
    },
    {
        "rt": -1,
        "key_press": 37,
        "correct": false,
        "id": "disk-condition-3-1",
        "choices": [
            "leftarrow",
            "rightarrow",
            "esc",
            "s"
        ],
        "correct_choice": [
            "RIGHTARROW"
        ],
        "trial_duration": 8000,
        "response_ends_trial": true,
        "central_intensity": 0.75,
        "surround_intensity": 0.45,
        "central_radius": 12,
        "surround_radius": 24,
        "ratio": 2,
        "speed": 1124,
        "direction": 1,
        "field_spacing": 148,
        "background_color": "gray",
        "frame_rate": 9.9975,
        "frame_rate_array": "[2,8,4,32,1,7,10,10,10,10,10,10,11,10,10,9,10,10,10,10,10,10,11,9,10,10,10,10,10,10,10,10,10,11,9,10,10,10,10,10,10,10,10,10,10,10,10,11,10,9,10,11,11,8,10,10,10,11,9,10,10,10,10,12,8,10,10,10,10,10,10,10,10,10,10,10,10,10,10,11,9,10,10,10,11,9,10,11,9,10,10,12,9,9,10,10,10,10,10,10,10,11,9,10,11,9,11,9,10,10,10,10,10,10,10,10,10,10,10,11,10,9,10,10,10,10,10,11,10,10,9,10,10,11,10,9,11,10,10,10,10,10,10,10,10,10,10,10,10,10,10,10,10,10,10,10,10,10,10,10,10,10,10,10,10,10,10,10,10,10,10,10,10,10,10,10,10,10,10,11,9,10,10,10,10,10,10,10,10,10,10,10,10,10,10,10,10,10,10,10,10,10,10,10,10,10,10,10,10,10,10,10,10,10,10,10,10,10,11,9,10,10,11,9,10,10,10,10,10,10,10,10,10,10,10,10,10,10,10,10,10,10,11,9,10,10,10,10,10,11,9,10,10,10,10,10,10,10,10,10,11,9,10,11,9,10,10,10,11,9,10,10,12,8,10,10,10,10,11,9,10,10,10,10,10,10,10,11,10,9,10,11,10,9,10,10,10,10,11,10,9,11,9,10,12,10,8,10,10,10,10,11,9,10,11,10,11,9,10,10,10,10,10,10,10,10,10,11,9,10,10,10,10,10,10,10,10,10,11,9,10,10,10,10,10,10,10,10,10,10,10,10,10,10,10,10,10,10,10,10,10,10,10,10,10,10,10,10,11,9,11,9,10,10,10,10,10,10,10,10,10,10,10,10,10,10,10,10,10,10,10,10,10,10,10,10,10,10,10,10,10,12,8,10,10,10,10,10,10,10,11,9,11,9,10,10,10,10,10,10,10,10,10,10,11,9,10,10,11,9,10,10,10,10,10,10,10,10,11,9,11,9,10,10,11,10,9,10,11,10,9,11,11,8,10,10,10,10,11,10,9,10,10,10,10,10,11,9,10,11,10,9,10,10,11,9,11,9,10,10,10,10,10,11,10,9,10,10,10,11,10,9,11,10,9,10,11,10,10,10,10,10,10,10,10,10,10,10,10,10,10,10,10,10,10,10,10,11,9,10,10,10,10,10,10,10,10,10,10,10,10,10,10,10,10,10,10,10,10,10,11,9,11,9,10,11,9,10,10,10,10,10,10,10,10,10,10,10,10,11,9,11,9,10,10,10,10,10,10,10,10,11,9,10,10,10,10,10,10,10,10,11,9,10,10,10,10,10,10,10,10,10,10,10,10,10,10,10,10,10,10,11,9,10,10,10,10,11,9,11,9,10,10,10,10,10,10,10,10,10,10,10,10,10,10,10,10,10,10,10,10,10,10,10,10,10,10,10,10,11,9,12,8,10,10,10,10,11,9,10,10,10,10,11,10,10,10,9,10,10,10,10,10,10,10,11,10,10,9,10,10,11,10,9,11,11,10,9,10,10,10,10,10,10,10,10,10,10,10,10,10,10,10,10,10,10,10,10,10,10,10,10,10,10,10,10,10,10,10,10,10,10,10,10,10,10,10,10,10,10,10,10,10,10,10,10,10,10,10,10,10,10,10,10,10,10,10,10,10,11,9,10,10,10,10,10,10,10,10,10,10,10,10,10,10,10,10,10,10,10,10,10,10,10,10,11,9,10,10,10,10,10,10,10,10,10,10,10,10,10,10,10,10,10,10,10,10,10,10,10,10,10,10,10,11,9,11,9,10,10]",
        "number_of_frames": 800,
        "canvas_width": 2560,
        "canvas_height": 1440,
        "blanking": false,
        "staircase": "trial-1-1",
        "trial_type": "disks",
        "trial_index": 17,
        "time_elapsed": 93527,
        "internal_node_id": "0.0-1.8-0.8-0.8",
        "valid_keypress": true,
        "stair_correct": false,
        "lower_limit_reached": true,
        "upper_limit_reached": false,
        "bestCheckCount": 4,
        "finalCheckCount": 0,
        "wrongAtBestLevel": 2,
        "correctAtLowerLevel": 0,
        "finalResult": "0.84",
        "passFrequency": 0,
        "limitreach": true,
        "staircaseTrialId": "trial-1-9"
    },
    {
        "rt": 1147,
        "stimulus": "",
        "key_press": 37,
        "trial_type": "html-keyboard-response",
        "trial_index": 18,
        "time_elapsed": 94676,
        "internal_node_id": "0.0-1.8-1.8-0.8"
    }
]